#RES  Dist(A) lDDT_CA(%)
1      91.062    0.472
2      95.411    0.344
3      98.447    0.533
4      93.741    0.452
5      92.928    0.392
6      93.454    0.522
7      93.669    0.500
8      92.503    0.348
9      92.173    0.397
10     92.683    0.533
11     92.415    0.386
12     92.061    0.375
13     92.083    0.462
14     92.264    0.462
15     92.288    0.360
16     92.332    0.400
17     92.174    0.429
18     92.806    0.375
19     93.353    0.346
20     93.395    0.400
21     93.011    0.419
22     94.271    0.346
23     95.452    0.362
24     94.714    0.407
25     95.171    0.360
26     97.171    0.367
27     97.860    0.392
28     96.615    0.413
29     97.851    0.346
30    100.795    0.386
31    100.185    0.394
32     98.312    0.395
33    101.031    0.353
34    103.784    0.378
35    101.505    0.404
36    101.280    0.321
37    104.934    0.350
38    106.223    0.429
39    103.271    0.435
40    103.965    0.605
41    100.415    0.487
42     93.071    0.270
43     90.206    0.364
44     85.429    0.318
45     80.380    0.440
46     80.109    0.442
47     76.903    0.353
48     71.143    0.481
49     70.286    0.483
50     70.216    0.343
51     64.892    0.426
52     60.664    0.456
53     61.755    0.367
54     60.266    0.349
55     54.106    0.486
56     52.013    0.429
57     53.092    0.321
58     49.515    0.343
59     43.822    0.514
60     43.739    0.344
61     41.800    0.298
62     36.053    0.397
63     34.686    0.431
64     35.153    0.333
65     31.677    0.367
66     26.453    0.466
67     26.681    0.380
68     26.191    0.360
69     21.767    0.462
70     18.008    0.500
71     18.983    0.380
72     17.522    0.450
73     13.320    0.605
74     11.509    0.526
75     11.877    0.429
76     11.430    0.647
77      9.678    0.674
78     10.082    0.571
79     10.074    0.792
80     14.223    0.528
81     13.164    0.426
82     15.055    0.359
83     11.887    0.500
84     11.418    0.662
85      5.899    0.565
86      5.468    0.430
87      2.009    0.311
88      4.542    0.426
89      5.706    0.432
90      3.402    0.446
91      2.286    0.367
92      1.970    0.487
93      1.605    0.494
94      1.122    0.380
95      0.588    0.355
96      0.593    0.417
97      0.913    0.429
98      1.170    0.365
99      1.508    0.378
100     1.812    0.500
101     1.987    0.392
102     2.109    0.353
103     1.873    0.423
104     1.814    0.467
105     2.059    0.378
106     2.125    0.367
107     1.563    0.480
108     1.416    0.480
109     1.364    0.362
110     1.147    0.450
111     0.963    0.562
112     0.807    0.450
113     0.317    0.409
114     0.486    0.643
115     0.320    0.540
116     0.629    0.434
117     0.668    0.492
118     0.577    0.712
119     1.122    0.500
120     1.686    0.431
121     2.084    0.662
122     2.458    0.656
123     3.061    0.487
124     2.020    0.250
